{
    "resourceType": "Bundle",
    "id": "3d8cef8d-9a5a-4286-8bd4-bd189fc502",
    "meta": {
        "lastUpdated": "2020-03-20T23:33:39.844Z"
    },
    "type": "searchset",
    "total": 128,
    "link": [
        {
            "relation": "self",
            "url": "http://test.fhir.org/r3/Condition?_format=application/fhir+json&search-id=83e85a8c-7a96-4148-ac50-e2a86ab1fd&&_sort=_id"
        },
        {
            "relation": "first",
            "url": "http://test.fhir.org/r3/Condition?_format=application/fhir+json&search-id=83e85a8c-7a96-4148-ac50-e2a86ab1fd&&_sort=_id&search-offset=0&_count=50"
        },
        {
            "relation": "next",
            "url": "http://test.fhir.org/r3/Condition?_format=application/fhir+json&search-id=83e85a8c-7a96-4148-ac50-e2a86ab1fd&&_sort=_id&search-offset=50&_count=50"
        },
        {
            "relation": "last",
            "url": "http://test.fhir.org/r3/Condition?_format=application/fhir+json&search-id=83e85a8c-7a96-4148-ac50-e2a86ab1fd&&_sort=_id&search-offset=100&_count=50"
        }
    ],
    "entry": [
        {
            "fullUrl": "http://test.fhir.org/r3/Condition/01df4fdb-cba0-435c-9220-bb6adf0e39",
            "resource": {
                "resourceType": "Condition",
                "id": "01df4fdb-cba0-435c-9220-bb6adf0e39",
                "meta": {
                    "versionId": "1",
                    "lastUpdated": "2019-01-16T21:35:17.499Z"
                },
                "text": {
                    "status": "generated",
                    "div": "<div xmlns=\"http://www.w3.org/1999/xhtml\"><p><b>Generated Narrative with Details</b></p><p><b>id</b>: 01df4fdb-cba0-435c-9220-bb6adf0e39</p><p><b>contained</b>: </p><p><b>clinicalStatus</b>: active</p><p><b>verificationStatus</b>: confirmed</p><p><b>code</b>: Drug overdose <span style=\"background: LightGoldenRodYellow \">(Details : {SNOMED CT code \"55680006\" := \"55680006\", given as \"Drug overdose\"})</span></p><p><b>subject</b>: <a href=\"Patient/100139\">Patient/100139</a></p><p><b>asserter</b>: #Leonard_McCoy</p></div>"
                },
                "contained": [
                    {
                        "resourceType": "Practitioner",
                        "id": "Leonard_McCoy",
                        "name": [
                            {
                                "text": "Leonard McCoy"
                            }
                        ]
                    }
                ],
                "clinicalStatus": "active",
                "verificationStatus": "confirmed",
                "code": {
                    "coding": [
                        {
                            "system": "http://snomed.info/sct",
                            "code": "55680006",
                            "display": "Drug overdose"
                        }
                    ]
                },
                "subject": {
                    "reference": "Patient/100139"
                },
                "asserter": {
                    "reference": "#Leonard_McCoy"
                }
            },
            "search": {
                "mode": "match"
            }
        },
        {
            "fullUrl": "http://test.fhir.org/r3/Condition/106",
            "resource": {
                "resourceType": "Condition",
                "id": "106",
                "meta": {
                    "versionId": "1",
                    "lastUpdated": "2019-02-07T19:32:36.217Z"
                },
                "text": {
                    "status": "generated",
                    "div": "<div xmlns=\"http://www.w3.org/1999/xhtml\"><p><b>Generated Narrative with Details</b></p><p><b>contained</b>: </p><p><b>identifier</b>: 45043f82-54f4-4382-a018-e221cefa2789</p><p><b>clinicalStatus</b>: inactive</p><p><b>subject</b>: #xx1</p><p><b>onset</b>: 0.99 {years}<span style=\"background: LightGoldenRodYellow \"> (Details: http://unitsofmeasure.org code {years} := \"{years}\")</span></p></div>"
                },
                "contained": [
                    {
                        "resourceType": "Patient",
                        "id": "xx1"
                    }
                ],
                "identifier": [
                    {
                        "system": "http://example.org/craigtestXX",
                        "value": "45043f82-54f4-4382-a018-e221cefa2789"
                    }
                ],
                "clinicalStatus": "inactive",
                "subject": {
                    "reference": "#xx1"
                },
                "onsetAge": {
                    "value": 0.99,
                    "system": "http://unitsofmeasure.org",
                    "code": "{years}"
                }
            },
            "search": {
                "mode": "match"
            }
        },
        {
            "fullUrl": "http://test.fhir.org/r3/Condition/107",
            "resource": {
                "resourceType": "Condition",
                "id": "107",
                "meta": {
                    "versionId": "1",
                    "lastUpdated": "2019-02-08T14:12:17.437Z"
                },
                "text": {
                    "status": "generated",
                    "div": "<div xmlns=\"http://www.w3.org/1999/xhtml\"><p><b>Generated Narrative with Details</b></p><p><b>contained</b>: </p><p><b>identifier</b>: 05b1aff4-3d1e-470b-9883-9fdb485cc791</p><p><b>clinicalStatus</b>: inactive</p><p><b>subject</b>: #xx1</p><p><b>onset</b>: 0.99 {years}<span style=\"background: LightGoldenRodYellow \"> (Details: http://unitsofmeasure.org code {years} := \"{years}\")</span></p></div>"
                },
                "contained": [
                    {
                        "resourceType": "Patient",
                        "id": "xx1"
                    }
                ],
                "identifier": [
                    {
                        "system": "http://example.org/craigtestXX",
                        "value": "05b1aff4-3d1e-470b-9883-9fdb485cc791"
                    }
                ],
                "clinicalStatus": "inactive",
                "subject": {
                    "reference": "#xx1"
                },
                "onsetAge": {
                    "value": 0.99,
                    "system": "http://unitsofmeasure.org",
                    "code": "{years}"
                }
            },
            "search": {
                "mode": "match"
            }
        },
        {
            "fullUrl": "http://test.fhir.org/r3/Condition/108",
            "resource": {
                "resourceType": "Condition",
                "id": "108",
                "meta": {
                    "versionId": "1",
                    "lastUpdated": "2019-02-08T14:12:40.078Z"
                },
                "text": {
                    "status": "generated",
                    "div": "<div xmlns=\"http://www.w3.org/1999/xhtml\"><p><b>Generated Narrative with Details</b></p><p><b>contained</b>: </p><p><b>identifier</b>: a42515d9-e7d3-44b6-bedf-6bf9db453a29</p><p><b>clinicalStatus</b>: inactive</p><p><b>subject</b>: #xx1</p><p><b>onset</b>: 0.99 {years}<span style=\"background: LightGoldenRodYellow \"> (Details: http://unitsofmeasure.org code {years} := \"{years}\")</span></p></div>"
                },
                "contained": [
                    {
                        "resourceType": "Patient",
                        "id": "xx1"
                    }
                ],
                "identifier": [
                    {
                        "system": "http://example.org/craigtestXX",
                        "value": "a42515d9-e7d3-44b6-bedf-6bf9db453a29"
                    }
                ],
                "clinicalStatus": "inactive",
                "subject": {
                    "reference": "#xx1"
                },
                "onsetAge": {
                    "value": 0.99,
                    "system": "http://unitsofmeasure.org",
                    "code": "{years}"
                }
            },
            "search": {
                "mode": "match"
            }
        },
        {
            "fullUrl": "http://test.fhir.org/r3/Condition/110",
            "resource": {
                "resourceType": "Condition",
                "id": "110",
                "meta": {
                    "versionId": "1",
                    "lastUpdated": "2019-02-08T16:10:14.421Z"
                },
                "text": {
                    "status": "generated",
                    "div": "<div xmlns=\"http://www.w3.org/1999/xhtml\"><p><b>Generated Narrative with Details</b></p><p><b>contained</b>: </p><p><b>identifier</b>: 127daa5d-3e90-489a-9c53-d8f7e9876535</p><p><b>clinicalStatus</b>: inactive</p><p><b>subject</b>: #xx1</p><p><b>onset</b>: 0.99 {years}<span style=\"background: LightGoldenRodYellow \"> (Details: http://unitsofmeasure.org code {years} := \"{years}\")</span></p></div>"
                },
                "contained": [
                    {
                        "resourceType": "Patient",
                        "id": "xx1"
                    }
                ],
                "identifier": [
                    {
                        "system": "http://example.org/craigtestXX",
                        "value": "127daa5d-3e90-489a-9c53-d8f7e9876535"
                    }
                ],
                "clinicalStatus": "inactive",
                "subject": {
                    "reference": "#xx1"
                },
                "onsetAge": {
                    "value": 0.99,
                    "system": "http://unitsofmeasure.org",
                    "code": "{years}"
                }
            },
            "search": {
                "mode": "match"
            }
        },
        {
            "fullUrl": "http://test.fhir.org/r3/Condition/111",
            "resource": {
                "resourceType": "Condition",
                "id": "111",
                "meta": {
                    "versionId": "1",
                    "lastUpdated": "2019-02-08T16:17:31.593Z"
                },
                "text": {
                    "status": "generated",
                    "div": "<div xmlns=\"http://www.w3.org/1999/xhtml\"><p><b>Generated Narrative with Details</b></p><p><b>contained</b>: </p><p><b>identifier</b>: 0d05f256-af3b-4747-9fa9-4100b3ae0af2</p><p><b>clinicalStatus</b>: inactive</p><p><b>subject</b>: #xx1</p><p><b>onset</b>: 0.99 {years}<span style=\"background: LightGoldenRodYellow \"> (Details: http://unitsofmeasure.org code {years} := \"{years}\")</span></p></div>"
                },
                "contained": [
                    {
                        "resourceType": "Patient",
                        "id": "xx1"
                    }
                ],
                "identifier": [
                    {
                        "system": "http://example.org/craigtestXX",
                        "value": "0d05f256-af3b-4747-9fa9-4100b3ae0af2"
                    }
                ],
                "clinicalStatus": "inactive",
                "subject": {
                    "reference": "#xx1"
                },
                "onsetAge": {
                    "value": 0.99,
                    "system": "http://unitsofmeasure.org",
                    "code": "{years}"
                }
            },
            "search": {
                "mode": "match"
            }
        },
        {
            "fullUrl": "http://test.fhir.org/r3/Condition/113",
            "resource": {
                "resourceType": "Condition",
                "id": "113",
                "meta": {
                    "versionId": "1",
                    "lastUpdated": "2019-02-08T16:30:29.499Z"
                },
                "text": {
                    "status": "generated",
                    "div": "<div xmlns=\"http://www.w3.org/1999/xhtml\"><p><b>Generated Narrative with Details</b></p><p><b>contained</b>: </p><p><b>identifier</b>: 970a347f-e645-4800-b7e6-197bca6d9665</p><p><b>clinicalStatus</b>: inactive</p><p><b>subject</b>: #xx1</p><p><b>onset</b>: 0.99 {years}<span style=\"background: LightGoldenRodYellow \"> (Details: http://unitsofmeasure.org code {years} := \"{years}\")</span></p></div>"
                },
                "contained": [
                    {
                        "resourceType": "Patient",
                        "id": "xx1"
                    }
                ],
                "identifier": [
                    {
                        "system": "http://example.org/craigtestXX",
                        "value": "970a347f-e645-4800-b7e6-197bca6d9665"
                    }
                ],
                "clinicalStatus": "inactive",
                "subject": {
                    "reference": "#xx1"
                },
                "onsetAge": {
                    "value": 0.99,
                    "system": "http://unitsofmeasure.org",
                    "code": "{years}"
                }
            },
            "search": {
                "mode": "match"
            }
        },
        {
            "fullUrl": "http://test.fhir.org/r3/Condition/143",
            "resource": {
                "resourceType": "Condition",
                "id": "143",
                "meta": {
                    "versionId": "4",
                    "lastUpdated": "2020-03-04T09:58:57.137Z"
                },
                "text": {
                    "status": "generated",
                    "div": "<div xmlns=\"http://www.w3.org/1999/xhtml\"><p><b>Generated Narrative with Details</b></p><p><b>id</b>: 143</p><p><b>contained</b>: </p><p><b>clinicalStatus</b>: active</p><p><b>verificationStatus</b>: confirmed</p><p><b>code</b>: Pointed Ear <span style=\"background: LightGoldenRodYellow \">(Details : {SNOMED CT code \"204256004\" := \"204256004\", given as \"Pointed Ear\"})</span></p><p><b>subject</b>: <a href=\"Patient/3232869\">Patient/3232869</a></p><p><b>context</b>: </p><p><b>asserter</b>: Dr. Leonard McCoy</p></div>"
                },
                "contained": [
                    {
                        "resourceType": "Practitioner",
                        "id": "some-id",
                        "name": [
                            {
                                "family": "McCoy",
                                "given": [
                                    "Leonard"
                                ]
                            }
                        ]
                    }
                ],
                "clinicalStatus": "active",
                "code": {
                    "coding": [
                        {
                            "system": "http://snomed.info/sct",
                            "code": "204256004",
                            "display": "Pointed Ear"
                        }
                    ],
                    "text": "Pointed Ear"
                },
                "subject": {
                    "reference": "Patient/3232869"
                },
                "context": {
                    "identifier": {
                        "system": "http://starfleet-hospital.ufp/NamingSystem/encounter-identifier",
                        "value": "34601"
                    }
                },
                "asserter": {
                    "reference": "#some-id",
                    "display": "Dr. Leonard McCoy"
                }
            },
            "search": {
                "mode": "match"
            }
        },
        {
            "fullUrl": "http://test.fhir.org/r3/Condition/144",
            "resource": {
                "resourceType": "Condition",
                "id": "144",
                "meta": {
                    "versionId": "2",
                    "lastUpdated": "2019-02-22T11:05:22.140Z"
                },
                "text": {
                    "status": "generated",
                    "div": "<div xmlns=\"http://www.w3.org/1999/xhtml\"><p><b>Generated Narrative with Details</b></p><p><b>id</b>: 144</p><p><b>contained</b>: </p><p><b>clinicalStatus</b>: active</p><p><b>verificationStatus</b>: confirmed</p><p><b>code</b>: Congenital pointed ear <span style=\"background: LightGoldenRodYellow \">(Details : {SNOMED CT code \"204256004\" := \"204256004\", given as \"Congenital pointed ear\"})</span></p><p><b>subject</b>: <a href=\"Patient/3232870\">Patient/3232870</a></p><p><b>context</b>: </p><p><b>asserter</b>: #mypract</p></div>"
                },
                "contained": [
                    {
                        "resourceType": "Practitioner",
                        "id": "mypract",
                        "name": [
                            {
                                "family": "McCoy",
                                "given": [
                                    "Leonard"
                                ],
                                "prefix": [
                                    "Dr."
                                ]
                            }
                        ]
                    }
                ],
                "clinicalStatus": "active",
                "verificationStatus": "confirmed",
                "code": {
                    "coding": [
                        {
                            "system": "http://snomed.info/sct",
                            "code": "204256004",
                            "display": "Congenital pointed ear"
                        }
                    ]
                },
                "subject": {
                    "reference": "Patient/3232870"
                },
                "context": {
                    "identifier": {
                        "system": "http://starfleet-hospital.ufp/NamingSystem/encounter-identifier",
                        "value": "34601"
                    }
                },
                "asserter": {
                    "reference": "#mypract"
                }
            },
            "search": {
                "mode": "match"
            }
        },
        {
            "fullUrl": "http://test.fhir.org/r3/Condition/145",
            "resource": {
                "resourceType": "Condition",
                "id": "145",
                "meta": {
                    "versionId": "1",
                    "lastUpdated": "2019-02-22T10:47:54.359Z"
                },
                "text": {
                    "status": "generated",
                    "div": "<div xmlns=\"http://www.w3.org/1999/xhtml\"><p><b>Generated Narrative with Details</b></p><p><b>contained</b>: </p><p><b>clinicalStatus</b>: active</p><p><b>verificationStatus</b>: confirmed</p><p><b>code</b>: Vulcan ear <span style=\"background: LightGoldenRodYellow \">(Details : {SNOMED CT code \"204256004\" := \"204256004\", given as \"Congenital pointed ear\"})</span></p><p><b>subject</b>: <a href=\"Patient/3232867\">Cpt. Christopher Pike</a></p><p><b>asserter</b>: Leonard McCoy, MD</p></div>"
                },
                "contained": [
                    {
                        "resourceType": "Practitioner",
                        "id": "ref-practitioner_mccoy",
                        "name": [
                            {
                                "family": "McCoy",
                                "given": [
                                    "Leonard"
                                ]
                            }
                        ]
                    }
                ],
                "clinicalStatus": "active",
                "verificationStatus": "confirmed",
                "code": {
                    "coding": [
                        {
                            "system": "http://snomed.info/sct",
                            "code": "204256004",
                            "display": "Congenital pointed ear"
                        }
                    ],
                    "text": "Vulcan ear"
                },
                "subject": {
                    "reference": "Patient/3232867",
                    "display": "Cpt. Christopher Pike"
                },
                "asserter": {
                    "reference": "#ref-practitioner_mccoy",
                    "display": "Leonard McCoy, MD"
                }
            },
            "search": {
                "mode": "match"
            }
        },
        {
            "fullUrl": "http://test.fhir.org/r3/Condition/168",
            "resource": {
                "resourceType": "Condition",
                "id": "168",
                "meta": {
                    "versionId": "1",
                    "lastUpdated": "2019-03-14T12:29:38.078Z"
                },
                "text": {
                    "status": "generated",
                    "div": "<div xmlns=\"http://www.w3.org/1999/xhtml\"><p><b>Generated Narrative with Details</b></p><p><b>clinicalStatus</b>: active</p><p><b>verificationStatus</b>: confirmed</p><p><b>code</b>: Congenital pointed ear <span style=\"background: LightGoldenRodYellow \">(Details : {SNOMED CT code \"204256004\" := \"204256004\", given as \"Congenital pointed ear\"})</span></p><p><b>subject</b>: <a href=\"Patient/3232894\">MARIS, Nina</a></p></div>"
                },
                "clinicalStatus": "active",
                "verificationStatus": "confirmed",
                "code": {
                    "coding": [
                        {
                            "system": "http://snomed.info/sct",
                            "code": "204256004",
                            "display": "Congenital pointed ear"
                        }
                    ]
                },
                "subject": {
                    "reference": "Patient/3232894",
                    "display": "MARIS, Nina"
                }
            },
            "search": {
                "mode": "match"
            }
        },
        {
            "fullUrl": "http://test.fhir.org/r3/Condition/169",
            "resource": {
                "resourceType": "Condition",
                "id": "169",
                "meta": {
                    "versionId": "1",
                    "lastUpdated": "2019-03-14T12:35:40.218Z"
                },
                "text": {
                    "status": "generated",
                    "div": "<div xmlns=\"http://www.w3.org/1999/xhtml\"><p><b>Generated Narrative with Details</b></p><p><b>contained</b>: </p><p><b>clinicalStatus</b>: active</p><p><b>verificationStatus</b>: confirmed</p><p><b>code</b>: Vulcan ear (disorder) <span style=\"background: LightGoldenRodYellow \">(Details : {SNOMED CT code \"253252004\" := \"253252004\", given as \"Vulcan ear (disorder)\"})</span></p><p><b>subject</b>: <a href=\"Patient/3232898\">Simone Heckmann</a></p><p><b>asserter</b>: Dr. Leonard McCoy MD</p></div>"
                },
                "contained": [
                    {
                        "resourceType": "Practitioner",
                        "id": "some-id",
                        "name": [
                            {
                                "family": "McCoy",
                                "given": [
                                    "Leonard"
                                ],
                                "prefix": [
                                    "Dr."
                                ],
                                "suffix": [
                                    "MD"
                                ]
                            }
                        ]
                    }
                ],
                "clinicalStatus": "active",
                "verificationStatus": "confirmed",
                "code": {
                    "coding": [
                        {
                            "system": "http://snomed.info/sct",
                            "code": "253252004",
                            "display": "Vulcan ear (disorder)"
                        }
                    ]
                },
                "subject": {
                    "reference": "Patient/3232898",
                    "display": "Simone Heckmann"
                },
                "asserter": {
                    "reference": "#some-id",
                    "display": "Dr. Leonard McCoy MD"
                }
            },
            "search": {
                "mode": "match"
            }
        },
        {
            "fullUrl": "http://test.fhir.org/r3/Condition/170",
            "resource": {
                "resourceType": "Condition",
                "id": "170",
                "meta": {
                    "versionId": "2",
                    "lastUpdated": "2019-03-14T12:56:08.781Z"
                },
                "text": {
                    "status": "generated",
                    "div": "<div xmlns=\"http://www.w3.org/1999/xhtml\"><p><b>Generated Narrative with Details</b></p><p><b>id</b>: 170</p><p><b>contained</b>: </p><p><b>clinicalStatus</b>: active</p><p><b>verificationStatus</b>: confirmed</p><p><b>code</b>: Congenital pointed ear <span style=\"background: LightGoldenRodYellow \">(Details : {SNOMED CT code \"204256004\" := \"204256004\", given as \"Congenital pointed ear\"})</span></p><p><b>subject</b>: <a href=\"Patient/3232903\">Johnny Bravo</a></p><p><b>asserter</b>: #contained-practitioner</p></div>"
                },
                "contained": [
                    {
                        "resourceType": "Practitioner",
                        "id": "contained-practitioner",
                        "name": [
                            {
                                "family": "McCoy",
                                "given": [
                                    "Leonard"
                                ]
                            }
                        ]
                    }
                ],
                "clinicalStatus": "active",
                "verificationStatus": "confirmed",
                "code": {
                    "coding": [
                        {
                            "system": "http://snomed.info/sct",
                            "code": "204256004",
                            "display": "Congenital pointed ear"
                        }
                    ]
                },
                "subject": {
                    "reference": "Patient/3232903",
                    "display": "Johnny Bravo"
                },
                "asserter": {
                    "reference": "#contained-practitioner"
                }
            },
            "search": {
                "mode": "match"
            }
        },
        {
            "fullUrl": "http://test.fhir.org/r3/Condition/171",
            "resource": {
                "resourceType": "Condition",
                "id": "171",
                "meta": {
                    "versionId": "3",
                    "lastUpdated": "2019-03-14T12:49:01.671Z"
                },
                "text": {
                    "status": "generated",
                    "div": "<div xmlns=\"http://www.w3.org/1999/xhtml\"><p><b>Generated Narrative with Details</b></p><p><b>id</b>: 171</p><p><b>contained</b>: </p><p><b>clinicalStatus</b>: active</p><p><b>category</b>: 253252004 <span style=\"background: LightGoldenRodYellow \">(Details : {SNOMED CT code \"253252004\" := \"253252004)</span></p><p><b>subject</b>: <a href=\"Patient/3232899\">Link</a></p><p><b>asserter</b>: #contained-practitioner</p></div>"
                },
                "contained": [
                    {
                        "resourceType": "Practitioner",
                        "id": "contained-practitioner",
                        "name": [
                            {
                                "family": "McCoy",
                                "given": [
                                    "Leonard"
                                ]
                            }
                        ]
                    }
                ],
                "clinicalStatus": "active",
                "category": [
                    {
                        "coding": [
                            {
                                "system": "http://snomed.info/sct",
                                "code": "253252004"
                            }
                        ]
                    }
                ],
                "subject": {
                    "reference": "Patient/3232899",
                    "display": "Link"
                },
                "asserter": {
                    "reference": "#contained-practitioner"
                }
            },
            "search": {
                "mode": "match"
            }
        },
        {
            "fullUrl": "http://test.fhir.org/r3/Condition/172",
            "resource": {
                "resourceType": "Condition",
                "id": "172",
                "meta": {
                    "versionId": "1",
                    "lastUpdated": "2019-03-14T12:45:22.546Z"
                },
                "text": {
                    "status": "generated",
                    "div": "<div xmlns=\"http://www.w3.org/1999/xhtml\"><p><b>Generated Narrative with Details</b></p><p><b>clinicalStatus</b>: active</p><p><b>verificationStatus</b>: confirmed</p><p><b>code</b>: Congenital pointed ear <span style=\"background: LightGoldenRodYellow \">(Details : {SNOMED CT code \"204256004\" := \"204256004\", given as \"Congenital pointed ear\"})</span></p><p><b>subject</b>: <a href=\"Patient/3232906\">Patient/3232906</a></p></div>"
                },
                "clinicalStatus": "active",
                "verificationStatus": "confirmed",
                "code": {
                    "coding": [
                        {
                            "system": "http://snomed.info/sct",
                            "code": "204256004",
                            "display": "Congenital pointed ear"
                        }
                    ]
                },
                "subject": {
                    "reference": "Patient/3232906"
                }
            },
            "search": {
                "mode": "match"
            }
        },
        {
            "fullUrl": "http://test.fhir.org/r3/Condition/173",
            "resource": {
                "resourceType": "Condition",
                "id": "173",
                "meta": {
                    "versionId": "1",
                    "lastUpdated": "2019-03-14T12:45:43.531Z"
                },
                "text": {
                    "status": "generated",
                    "div": "<div xmlns=\"http://www.w3.org/1999/xhtml\"><p><b>Generated Narrative with Details</b></p><p><b>clinicalStatus</b>: active</p><p><b>verificationStatus</b>: confirmed</p><p><b>code</b>: pointed ear <span style=\"background: LightGoldenRodYellow \">(Details : {SNOMED CT code \"204256004\" := \"204256004\", given as \"Congenital pointed ear\"})</span></p><p><b>subject</b>: <a href=\"Patient/3232910\">Mustermann, Peter</a></p></div>"
                },
                "clinicalStatus": "active",
                "verificationStatus": "confirmed",
                "code": {
                    "coding": [
                        {
                            "system": "http://snomed.info/sct",
                            "code": "204256004",
                            "display": "Congenital pointed ear"
                        }
                    ],
                    "text": "pointed ear"
                },
                "subject": {
                    "reference": "Patient/3232910",
                    "display": "Mustermann, Peter"
                }
            },
            "search": {
                "mode": "match"
            }
        },
        {
            "fullUrl": "http://test.fhir.org/r3/Condition/174",
            "resource": {
                "resourceType": "Condition",
                "id": "174",
                "meta": {
                    "versionId": "1",
                    "lastUpdated": "2019-03-14T12:53:53.343Z"
                },
                "text": {
                    "status": "generated",
                    "div": "<div xmlns=\"http://www.w3.org/1999/xhtml\"><p><b>Generated Narrative with Details</b></p><p><b>contained</b>: </p><p><b>clinicalStatus</b>: active</p><p><b>verificationStatus</b>: confirmed</p><p><b>code</b>: Congenital pointed ear (disorder) <span style=\"background: LightGoldenRodYellow \">(Details : {SNOMED CT code \"204256004\" := \"204256004\", given as \"Congenital pointed ear (disorder)\"})</span></p><p><b>subject</b>: <a href=\"http://test.fhir.org/r3/Patient/3232908\">http://test.fhir.org/r3/Patient/3232908</a></p><p><b>context</b>: Fallnummer: 34601</p><p><b>asserter</b>: #contained-practitioner</p></div>"
                },
                "contained": [
                    {
                        "resourceType": "Practitioner",
                        "id": "contained-practitioner",
                        "name": [
                            {
                                "family": "McCoy",
                                "given": [
                                    "Leonard"
                                ]
                            }
                        ]
                    }
                ],
                "clinicalStatus": "active",
                "verificationStatus": "confirmed",
                "code": {
                    "coding": [
                        {
                            "system": "http://snomed.info/sct",
                            "code": "204256004",
                            "display": "Congenital pointed ear (disorder)"
                        }
                    ]
                },
                "subject": {
                    "reference": "http://test.fhir.org/r3/Patient/3232908"
                },
                "context": {
                    "identifier": {
                        "system": "http://starfleet-hospital.ufp/NamingSystem/encounter-identifier",
                        "value": "34601"
                    },
                    "display": "Fallnummer: 34601"
                },
                "asserter": {
                    "reference": "#contained-practitioner"
                }
            },
            "search": {
                "mode": "match"
            }
        },
        {
            "fullUrl": "http://test.fhir.org/r3/Condition/175",
            "resource": {
                "resourceType": "Condition",
                "id": "175",
                "meta": {
                    "versionId": "1",
                    "lastUpdated": "2019-03-14T12:54:06.125Z"
                },
                "text": {
                    "status": "generated",
                    "div": "<div xmlns=\"http://www.w3.org/1999/xhtml\"><p><b>Generated Narrative with Details</b></p><p><b>contained</b>: </p><p><b>clinicalStatus</b>: resolved</p><p><b>verificationStatus</b>: confirmed</p><p><b>code</b>: Vulcan ear (disorder) <span style=\"background: LightGoldenRodYellow \">(Details : {https://www.snomed.org/snomed-ct/sct-worldwide code \"253252004\" := \"253252004\", given as \"Vulcan ear (disorder)\"})</span></p><p><b>subject</b>: <a href=\"Patient/3232892\">3232892</a></p><p><b>asserter</b>: #sax-practitioner</p></div>"
                },
                "contained": [
                    {
                        "resourceType": "Practitioner",
                        "id": "sax-practitioner",
                        "name": [
                            {
                                "family": "McCoy",
                                "given": [
                                    "Leonard"
                                ]
                            }
                        ]
                    }
                ],
                "clinicalStatus": "resolved",
                "verificationStatus": "confirmed",
                "code": {
                    "coding": [
                        {
                            "system": "https://www.snomed.org/snomed-ct/sct-worldwide",
                            "code": "253252004",
                            "display": "Vulcan ear (disorder)"
                        }
                    ]
                },
                "subject": {
                    "reference": "Patient/3232892",
                    "display": "3232892"
                },
                "asserter": {
                    "reference": "#sax-practitioner"
                }
            },
            "search": {
                "mode": "match"
            }
        },
        {
            "fullUrl": "http://test.fhir.org/r3/Condition/197",
            "resource": {
                "resourceType": "Condition",
                "id": "197",
                "meta": {
                    "versionId": "2",
                    "lastUpdated": "2019-05-08T08:30:36.687Z"
                },
                "text": {
                    "status": "generated",
                    "div": "<div xmlns=\"http://www.w3.org/1999/xhtml\"><p><b>Generated Narrative with Details</b></p><p><b>id</b>: 197</p><p><b>clinicalStatus</b>: active</p><p><b>code</b>: Congenital pointed ear <span style=\"background: LightGoldenRodYellow \">(Details : {SNOMED CT code \"204256004\" := \"204256004\", given as \"Congenital pointed ear\"})</span></p><p><b>subject</b>: <a href=\"Patient/3233030\">SAP Test</a></p></div>"
                },
                "clinicalStatus": "active",
                "code": {
                    "coding": [
                        {
                            "system": "http://snomed.info/sct",
                            "code": "204256004",
                            "display": "Congenital pointed ear"
                        }
                    ]
                },
                "subject": {
                    "reference": "Patient/3233030",
                    "display": "SAP Test"
                }
            },
            "search": {
                "mode": "match"
            }
        },
        {
            "fullUrl": "http://test.fhir.org/r3/Condition/198",
            "resource": {
                "resourceType": "Condition",
                "id": "198",
                "meta": {
                    "versionId": "1",
                    "lastUpdated": "2019-05-08T20:16:08.984Z"
                },
                "text": {
                    "status": "generated",
                    "div": "<div xmlns=\"http://www.w3.org/1999/xhtml\"><p><b>Generated Narrative with Details</b></p><p><b>clinicalStatus</b>: active</p><p><b>code</b>: Congenital Pointed Ear <span style=\"background: LightGoldenRodYellow \">(Details : {SNOMED CT code \"204256004\" := \"204256004\", given as \"Congenital Pointed Ear\"})</span></p><p><b>subject</b>: <a href=\"http://test.fhir.org/r3/Patient/3233034\">http://test.fhir.org/r3/Patient/3233034</a></p></div>"
                },
                "clinicalStatus": "active",
                "code": {
                    "coding": [
                        {
                            "system": "http://snomed.info/sct",
                            "code": "204256004",
                            "display": "Congenital Pointed Ear"
                        }
                    ]
                },
                "subject": {
                    "reference": "http://test.fhir.org/r3/Patient/3233034"
                }
            },
            "search": {
                "mode": "match"
            }
        },
        {
            "fullUrl": "http://test.fhir.org/r3/Condition/199",
            "resource": {
                "resourceType": "Condition",
                "id": "199",
                "meta": {
                    "versionId": "1",
                    "lastUpdated": "2019-05-11T01:33:10.937Z"
                },
                "text": {
                    "status": "generated",
                    "div": "<div xmlns=\"http://www.w3.org/1999/xhtml\"><p><b>Generated Narrative with Details</b></p><p><b>clinicalStatus</b>: active</p><p><b>code</b>: Congenital Pointed Ear <span style=\"background: LightGoldenRodYellow \">(Details : {SNOMED CT code \"204256004\" := \"204256004\", given as \"Congenital Pointed Ear\"})</span></p><p><b>subject</b>: <a href=\"http://test.fhir.org/r3/Patient/3233034\">http://test.fhir.org/r3/Patient/3233034</a></p></div>"
                },
                "clinicalStatus": "active",
                "code": {
                    "coding": [
                        {
                            "system": "http://snomed.info/sct",
                            "code": "204256004",
                            "display": "Congenital Pointed Ear"
                        }
                    ]
                },
                "subject": {
                    "reference": "http://test.fhir.org/r3/Patient/3233034"
                }
            },
            "search": {
                "mode": "match"
            }
        },
        {
            "fullUrl": "http://test.fhir.org/r3/Condition/200",
            "resource": {
                "resourceType": "Condition",
                "id": "200",
                "meta": {
                    "versionId": "1",
                    "lastUpdated": "2019-05-21T21:37:53.937Z"
                },
                "text": {
                    "status": "generated",
                    "div": "<div xmlns=\"http://www.w3.org/1999/xhtml\">Asthma</div>"
                },
                "clinicalStatus": "active",
                "verificationStatus": "confirmed",
                "category": [
                    {
                        "coding": [
                            {
                                "system": "http://snomed.info/sct",
                                "code": "14657009",
                                "display": "Diagnosis"
                            }
                        ],
                        "text": "Diagnosis"
                    }
                ],
                "severity": {
                    "coding": [
                        {
                            "system": "http://snomed.info/ct",
                            "code": "6736007",
                            "display": "mild to moderate"
                        }
                    ],
                    "text": "mild to moderate"
                },
                "code": {
                    "coding": [
                        {
                            "system": "http://snomed.info/ct",
                            "code": "195917001",
                            "display": "asthma"
                        }
                    ],
                    "text": "asthma"
                },
                "subject": {
                    "reference": "Patient/3233061"
                },
                "onsetAge": {
                    "value": 14,
                    "system": "http://unitsofmeasure.org",
                    "code": "a"
                }
            },
            "search": {
                "mode": "match"
            }
        },
        {
            "fullUrl": "http://test.fhir.org/r3/Condition/201",
            "resource": {
                "resourceType": "Condition",
                "id": "201",
                "meta": {
                    "versionId": "1",
                    "lastUpdated": "2019-05-21T21:37:54.968Z"
                },
                "text": {
                    "status": "generated",
                    "div": "<div xmlns=\"http://www.w3.org/1999/xhtml\">Diabetes</div>"
                },
                "clinicalStatus": "active",
                "verificationStatus": "confirmed",
                "category": [
                    {
                        "coding": [
                            {
                                "system": "http://snomed.info/sct",
                                "code": "14657009",
                                "display": "Diagnosis"
                            }
                        ],
                        "text": "Diagnosis"
                    }
                ],
                "severity": {
                    "coding": [
                        {
                            "system": "http://snomed.info/ct",
                            "code": "6736007",
                            "display": "moderate"
                        }
                    ],
                    "text": "moderate"
                },
                "code": {
                    "coding": [
                        {
                            "system": "http://snomed.info/ct",
                            "code": "73211009",
                            "display": "diabetes"
                        }
                    ],
                    "text": "diabetes"
                },
                "subject": {
                    "reference": "Patient/3233061"
                },
                "onsetAge": {
                    "value": 60,
                    "system": "http://unitsofmeasure.org",
                    "code": "a"
                }
            },
            "search": {
                "mode": "match"
            }
        },
        {
            "fullUrl": "http://test.fhir.org/r3/Condition/202",
            "resource": {
                "resourceType": "Condition",
                "id": "202",
                "meta": {
                    "versionId": "1",
                    "lastUpdated": "2019-05-21T21:37:55.250Z"
                },
                "text": {
                    "status": "generated",
                    "div": "<div xmlns=\"http://www.w3.org/1999/xhtml\">Hypertension</div>"
                },
                "clinicalStatus": "active",
                "verificationStatus": "confirmed",
                "category": [
                    {
                        "coding": [
                            {
                                "system": "http://snomed.info/sct",
                                "code": "14657009",
                                "display": "Diagnosis"
                            }
                        ],
                        "text": "Diagnosis"
                    }
                ],
                "severity": {
                    "coding": [
                        {
                            "system": "http://snomed.info/ct",
                            "code": "255604002",
                            "display": "mild"
                        }
                    ],
                    "text": "Mild"
                },
                "code": {
                    "coding": [
                        {
                            "system": "http://snomed.info/ct",
                            "code": "38341003",
                            "display": "hypertension"
                        }
                    ],
                    "text": "hypertension"
                },
                "subject": {
                    "reference": "Patient/3233061"
                },
                "onsetAge": {
                    "value": 68,
                    "system": "http://unitsofmeasure.org",
                    "code": "a"
                }
            },
            "search": {
                "mode": "match"
            }
        },
        {
            "fullUrl": "http://test.fhir.org/r3/Condition/203",
            "resource": {
                "resourceType": "Condition",
                "id": "203",
                "meta": {
                    "versionId": "1",
                    "lastUpdated": "2019-05-21T21:37:55.562Z"
                },
                "text": {
                    "status": "generated",
                    "div": "<div xmlns=\"http://www.w3.org/1999/xhtml\">Depression</div>"
                },
                "clinicalStatus": "active",
                "verificationStatus": "confirmed",
                "category": [
                    {
                        "coding": [
                            {
                                "system": "http://snomed.info/sct",
                                "code": "14657009",
                                "display": "Diagnosis"
                            }
                        ],
                        "text": "Diagnosis"
                    }
                ],
                "severity": {
                    "coding": [
                        {
                            "system": "http://snomed.info/ct",
                            "code": "6736007",
                            "display": "moderate"
                        }
                    ],
                    "text": "Moderate"
                },
                "code": {
                    "coding": [
                        {
                            "system": "http://snomed.info/ct",
                            "code": "35489007",
                            "display": "depression"
                        }
                    ],
                    "text": "depression"
                },
                "subject": {
                    "reference": "Patient/3233061"
                },
                "onsetAge": {
                    "value": 74,
                    "system": "http://unitsofmeasure.org",
                    "code": "a"
                }
            },
            "search": {
                "mode": "match"
            }
        },
        {
            "fullUrl": "http://test.fhir.org/r3/Condition/204",
            "resource": {
                "resourceType": "Condition",
                "id": "204",
                "meta": {
                    "versionId": "1",
                    "lastUpdated": "2019-05-21T21:37:55.765Z"
                },
                "text": {
                    "status": "generated",
                    "div": "<div xmlns=\"http://www.w3.org/1999/xhtml\">Neuropathic pain</div>"
                },
                "clinicalStatus": "active",
                "verificationStatus": "confirmed",
                "category": [
                    {
                        "coding": [
                            {
                                "system": "http://snomed.info/sct",
                                "code": "14657009",
                                "display": "Diagnosis"
                            }
                        ],
                        "text": "Diagnosis"
                    }
                ],
                "severity": {
                    "coding": [
                        {
                            "system": "http://snomed.info/ct",
                            "code": "6736007",
                            "display": "moderate"
                        }
                    ],
                    "text": "moderate"
                },
                "code": {
                    "coding": [
                        {
                            "system": "http://snomed.info/ct",
                            "code": "247389009",
                            "display": "neuropathic pain"
                        }
                    ],
                    "text": "neuropathic pain"
                },
                "subject": {
                    "reference": "Patient/3233061"
                },
                "onsetAge": {
                    "value": 75,
                    "system": "http://unitsofmeasure.org",
                    "code": "a"
                }
            },
            "search": {
                "mode": "match"
            }
        },
        {
            "fullUrl": "http://test.fhir.org/r3/Condition/205",
            "resource": {
                "resourceType": "Condition",
                "id": "205",
                "meta": {
                    "versionId": "1",
                    "lastUpdated": "2019-05-21T21:37:56.062Z"
                },
                "text": {
                    "status": "generated",
                    "div": "<div xmlns=\"http://www.w3.org/1999/xhtml\">Rheumatoid Arthritis</div>"
                },
                "clinicalStatus": "active",
                "verificationStatus": "confirmed",
                "category": [
                    {
                        "coding": [
                            {
                                "system": "http://snomed.info/sct",
                                "code": "14657009",
                                "display": "Diagnosis"
                            }
                        ],
                        "text": "Diagnosis"
                    }
                ],
                "severity": {
                    "coding": [
                        {
                            "system": "http://snomed.info/ct",
                            "code": "6736007",
                            "display": "moderate"
                        }
                    ],
                    "text": "Moderate"
                },
                "code": {
                    "coding": [
                        {
                            "system": "http://snomed.info/ct",
                            "code": "69896004",
                            "display": "rheumatoid arthritis"
                        }
                    ],
                    "text": "rheumatoid arthritis - both hands"
                },
                "bodySite": [
                    {
                        "coding": [
                            {
                                "system": "http://snomed.info/ct",
                                "code": "12861001",
                                "display": "both hands"
                            }
                        ],
                        "text": "both hands"
                    }
                ],
                "subject": {
                    "reference": "Patient/3233061"
                },
                "onsetAge": {
                    "value": 72,
                    "system": "http://unitsofmeasure.org",
                    "code": "a"
                },
                "evidence": [
                    {
                        "code": [
                            {
                                "coding": [
                                    {
                                        "system": "http://snomed.info/ct",
                                        "code": "57676002",
                                        "display": "Painful Joint"
                                    }
                                ],
                                "text": "Painful joint"
                            }
                        ]
                    }
                ]
            },
            "search": {
                "mode": "match"
            }
        },
        {
            "fullUrl": "http://test.fhir.org/r3/Condition/206",
            "resource": {
                "resourceType": "Condition",
                "id": "206",
                "meta": {
                    "versionId": "1",
                    "lastUpdated": "2019-05-21T21:37:56.671Z"
                },
                "text": {
                    "status": "generated",
                    "div": "<div xmlns=\"http://www.w3.org/1999/xhtml\">Rheumatoid arthritis - left elbow</div>"
                },
                "clinicalStatus": "active",
                "verificationStatus": "confirmed",
                "category": [
                    {
                        "coding": [
                            {
                                "system": "http://snomed.info/sct",
                                "code": "14657009",
                                "display": "Diagnosis"
                            }
                        ],
                        "text": "Diagnosis"
                    }
                ],
                "severity": {
                    "coding": [
                        {
                            "system": "http://snomed.info/ct",
                            "code": "6736007",
                            "display": "mild to moderate"
                        }
                    ],
                    "text": "Diagnosis"
                },
                "code": {
                    "coding": [
                        {
                            "system": "http://snomed.info/ct",
                            "code": "69896004",
                            "display": "rheumatoid arthritis"
                        }
                    ],
                    "text": "rheumatoid arthritis - left elbow"
                },
                "subject": {
                    "reference": "Patient/3233061"
                },
                "onsetAge": {
                    "value": 74,
                    "system": "http://unitsofmeasure.org",
                    "code": "a"
                },
                "evidence": [
                    {
                        "code": [
                            {
                                "coding": [
                                    {
                                        "system": "http://snomed.info/ct",
                                        "code": "57676002",
                                        "display": "Painful Joint"
                                    }
                                ],
                                "text": "Painful joint"
                            }
                        ]
                    }
                ]
            },
            "search": {
                "mode": "match"
            }
        },
        {
            "fullUrl": "http://test.fhir.org/r3/Condition/207",
            "resource": {
                "resourceType": "Condition",
                "id": "207",
                "meta": {
                    "versionId": "1",
                    "lastUpdated": "2019-05-21T21:37:56.781Z"
                },
                "text": {
                    "status": "generated",
                    "div": "<div xmlns=\"http://www.w3.org/1999/xhtml\">GERD</div>"
                },
                "clinicalStatus": "active",
                "verificationStatus": "confirmed",
                "category": [
                    {
                        "coding": [
                            {
                                "system": "http://snomed.info/sct",
                                "code": "14657009",
                                "display": "Diagnosis"
                            }
                        ],
                        "text": "Diagnosis"
                    }
                ],
                "severity": {
                    "coding": [
                        {
                            "system": "http://snomed.info/ct",
                            "code": "6736007",
                            "display": "moderate"
                        }
                    ],
                    "text": "Moderate"
                },
                "code": {
                    "coding": [
                        {
                            "system": "http://snomed.info/ct",
                            "code": "235595009",
                            "display": "GERD"
                        }
                    ],
                    "text": "GERD"
                },
                "subject": {
                    "reference": "Patient/3233061"
                },
                "onsetAge": {
                    "value": 66,
                    "system": "http://unitsofmeasure.org",
                    "code": "a"
                }
            },
            "search": {
                "mode": "match"
            }
        },
        {
            "fullUrl": "http://test.fhir.org/r3/Condition/208",
            "resource": {
                "resourceType": "Condition",
                "id": "208",
                "meta": {
                    "versionId": "1",
                    "lastUpdated": "2019-05-21T21:37:56.968Z"
                },
                "text": {
                    "status": "generated",
                    "div": "<div xmlns=\"http://www.w3.org/1999/xhtml\">Hypercholesterolaemia</div>"
                },
                "clinicalStatus": "active",
                "verificationStatus": "confirmed",
                "category": [
                    {
                        "coding": [
                            {
                                "system": "http://snomed.info/sct",
                                "code": "14657009",
                                "display": "Diagnosis"
                            }
                        ],
                        "text": "Diagnosis"
                    }
                ],
                "severity": {
                    "coding": [
                        {
                            "system": "http://snomed.info/ct",
                            "code": "6736007",
                            "display": "moderate"
                        }
                    ],
                    "text": "Moderate"
                },
                "code": {
                    "coding": [
                        {
                            "system": "http://snomed.info/ct",
                            "code": "13644009",
                            "display": "high cholesterol"
                        }
                    ],
                    "text": "high cholesterol"
                },
                "subject": {
                    "reference": "Patient/3233061"
                },
                "onsetAge": {
                    "value": 68,
                    "system": "http://unitsofmeasure.org",
                    "code": "a"
                }
            },
            "search": {
                "mode": "match"
            }
        },
        {
            "fullUrl": "http://test.fhir.org/r3/Condition/209",
            "resource": {
                "resourceType": "Condition",
                "id": "209",
                "meta": {
                    "versionId": "1",
                    "lastUpdated": "2019-05-21T21:37:57.187Z"
                },
                "text": {
                    "status": "generated",
                    "div": "<div xmlns=\"http://www.w3.org/1999/xhtml\">Onychomycosis</div>"
                },
                "clinicalStatus": "active",
                "verificationStatus": "confirmed",
                "category": [
                    {
                        "coding": [
                            {
                                "system": "http://snomed.info/sct",
                                "code": "14657009",
                                "display": "Diagnosis"
                            }
                        ],
                        "text": "Diagnosis"
                    }
                ],
                "severity": {
                    "coding": [
                        {
                            "system": "http://snomed.info/ct",
                            "code": "24484000",
                            "display": "severe"
                        }
                    ],
                    "text": "severe"
                },
                "code": {
                    "coding": [
                        {
                            "system": "http://snomed.info/ct",
                            "code": "414941998",
                            "display": "onychomycosis"
                        }
                    ],
                    "text": "onychomycosis"
                },
                "subject": {
                    "reference": "Patient/3233061"
                },
                "onsetAge": {
                    "value": 77,
                    "system": "http://unitsofmeasure.org",
                    "code": "a"
                }
            },
            "search": {
                "mode": "match"
            }
        },
        {
            "fullUrl": "http://test.fhir.org/r3/Condition/210",
            "resource": {
                "resourceType": "Condition",
                "id": "210",
                "meta": {
                    "versionId": "1",
                    "lastUpdated": "2019-05-21T21:37:57.421Z"
                },
                "text": {
                    "status": "generated",
                    "div": "<div xmlns=\"http://www.w3.org/1999/xhtml\">Angina</div>"
                },
                "clinicalStatus": "active",
                "verificationStatus": "confirmed",
                "category": [
                    {
                        "coding": [
                            {
                                "system": "http://snomed.info/sct",
                                "code": "14657009",
                                "display": "Diagnosis"
                            }
                        ],
                        "text": "Diagnosis"
                    }
                ],
                "severity": {
                    "coding": [
                        {
                            "system": "http://snomed.info/ct",
                            "code": "6736007",
                            "display": "moderate"
                        }
                    ],
                    "text": "Moderate"
                },
                "code": {
                    "coding": [
                        {
                            "system": "http://snomed.info/ct",
                            "code": "194818000",
                            "display": "angina"
                        }
                    ],
                    "text": "angina"
                },
                "subject": {
                    "reference": "Patient/3233061"
                },
                "onsetAge": {
                    "value": 76,
                    "system": "http://unitsofmeasure.org",
                    "code": "a"
                },
                "evidence": [
                    {
                        "code": [
                            {
                                "coding": [
                                    {
                                        "system": "http://snomed.info/ct",
                                        "code": "29857009",
                                        "display": "Chest Pain"
                                    }
                                ],
                                "text": "Chest Pain"
                            }
                        ]
                    }
                ]
            },
            "search": {
                "mode": "match"
            }
        },
        {
            "fullUrl": "http://test.fhir.org/r3/Condition/211",
            "resource": {
                "resourceType": "Condition",
                "id": "211",
                "meta": {
                    "versionId": "1",
                    "lastUpdated": "2019-08-30T07:41:48.296Z"
                },
                "text": {
                    "status": "generated",
                    "div": "<div xmlns=\"http://www.w3.org/1999/xhtml\"><p><b>Generated Narrative with Details</b></p><p><b>id</b>: 211</p><p><b>clinicalStatus</b>: active</p><p><b>verificationStatus</b>: unknown</p><p><b>code</b>: Acute nasopharyngitis [common cold] <span style=\"background: LightGoldenRodYellow \">(Details : {http://hl7.org/fhir/sid/icd-10-cm code \"J00\" := \"J00\", given as \"Acute nasopharyngitis [common cold]\"})</span></p><p><b>subject</b>: anonymous patient</p></div>"
                },
                "clinicalStatus": "active",
                "verificationStatus": "unknown",
                "code": {
                    "coding": [
                        {
                            "system": "http://hl7.org/fhir/sid/icd-10-cm",
                            "version": "2018",
                            "code": "J00",
                            "display": "Acute nasopharyngitis [common cold]"
                        }
                    ]
                },
                "subject": {
                    "display": "anonymous patient"
                }
            },
            "search": {
                "mode": "match"
            }
        },
        {
            "fullUrl": "http://test.fhir.org/r3/Condition/413",
            "resource": {
                "resourceType": "Condition",
                "id": "413",
                "meta": {
                    "versionId": "1",
                    "lastUpdated": "2019-12-03T14:03:59.312Z"
                },
                "text": {
                    "status": "generated",
                    "div": "<div xmlns=\"http://www.w3.org/1999/xhtml\"><p><b>Generated Narrative with Details</b></p><p><b>id</b>: 413</p><p><b>identifier</b>: 163353_1</p><p><b>code</b>: Single liveborn, born in hospital, delivered by cesarean section <span style=\"background: LightGoldenRodYellow \">(Details : {http://hl7.org/fhir/sid/icd-9-cm code \"V3001\" := \"V3001\", given as \"Single liveborn, born in hospital, delivered by cesarean section\"})</span></p><p><b>subject</b>: <a href=\"Patient/3233414\">Patient/3233414</a></p></div>"
                },
                "identifier": [
                    {
                        "system": "http://www.imi-mimic.de/diags",
                        "value": "163353_1"
                    }
                ],
                "code": {
                    "coding": [
                        {
                            "system": "http://hl7.org/fhir/sid/icd-9-cm",
                            "code": "V3001",
                            "display": "Single liveborn, born in hospital, delivered by cesarean section"
                        }
                    ]
                },
                "subject": {
                    "reference": "Patient/3233414"
                }
            },
            "search": {
                "mode": "match"
            }
        },
        {
            "fullUrl": "http://test.fhir.org/r3/Condition/414",
            "resource": {
                "resourceType": "Condition",
                "id": "414",
                "meta": {
                    "versionId": "1",
                    "lastUpdated": "2019-12-03T14:03:59.672Z"
                },
                "text": {
                    "status": "generated",
                    "div": "<div xmlns=\"http://www.w3.org/1999/xhtml\"><p><b>Generated Narrative with Details</b></p><p><b>id</b>: 414</p><p><b>identifier</b>: 163353_2</p><p><b>code</b>: Need for prophylactic vaccination and inoculation against viral hepatitis <span style=\"background: LightGoldenRodYellow \">(Details : {http://hl7.org/fhir/sid/icd-9-cm code \"V053\" := \"V053\", given as \"Need for prophylactic vaccination and inoculation against viral hepatitis\"})</span></p><p><b>subject</b>: <a href=\"Patient/3233414\">Patient/3233414</a></p></div>"
                },
                "identifier": [
                    {
                        "system": "http://www.imi-mimic.de/diags",
                        "value": "163353_2"
                    }
                ],
                "code": {
                    "coding": [
                        {
                            "system": "http://hl7.org/fhir/sid/icd-9-cm",
                            "code": "V053",
                            "display": "Need for prophylactic vaccination and inoculation against viral hepatitis"
                        }
                    ]
                },
                "subject": {
                    "reference": "Patient/3233414"
                }
            },
            "search": {
                "mode": "match"
            }
        },
        {
            "fullUrl": "http://test.fhir.org/r3/Condition/415",
            "resource": {
                "resourceType": "Condition",
                "id": "415",
                "meta": {
                    "versionId": "1",
                    "lastUpdated": "2019-12-03T14:03:59.843Z"
                },
                "text": {
                    "status": "generated",
                    "div": "<div xmlns=\"http://www.w3.org/1999/xhtml\"><p><b>Generated Narrative with Details</b></p><p><b>id</b>: 415</p><p><b>identifier</b>: 163353_3</p><p><b>code</b>: Observation for suspected infectious condition <span style=\"background: LightGoldenRodYellow \">(Details : {http://hl7.org/fhir/sid/icd-9-cm code \"V290\" := \"V290\", given as \"Observation for suspected infectious condition\"})</span></p><p><b>subject</b>: <a href=\"Patient/3233414\">Patient/3233414</a></p></div>"
                },
                "identifier": [
                    {
                        "system": "http://www.imi-mimic.de/diags",
                        "value": "163353_3"
                    }
                ],
                "code": {
                    "coding": [
                        {
                            "system": "http://hl7.org/fhir/sid/icd-9-cm",
                            "code": "V290",
                            "display": "Observation for suspected infectious condition"
                        }
                    ]
                },
                "subject": {
                    "reference": "Patient/3233414"
                }
            },
            "search": {
                "mode": "match"
            }
        },
        {
            "fullUrl": "http://test.fhir.org/r3/Condition/416",
            "resource": {
                "resourceType": "Condition",
                "id": "416",
                "meta": {
                    "versionId": "1",
                    "lastUpdated": "2020-01-08T17:39:22.843Z"
                },
                "text": {
                    "status": "generated",
                    "div": "<div xmlns=\"http://www.w3.org/1999/xhtml\">Asthma</div>"
                },
                "clinicalStatus": "active",
                "verificationStatus": "confirmed",
                "category": [
                    {
                        "coding": [
                            {
                                "system": "http://snomed.info/sct",
                                "code": "14657009",
                                "display": "Diagnosis"
                            }
                        ],
                        "text": "Diagnosis"
                    }
                ],
                "severity": {
                    "coding": [
                        {
                            "system": "http://snomed.info/ct",
                            "code": "6736007",
                            "display": "mild to moderate"
                        }
                    ],
                    "text": "mild to moderate"
                },
                "code": {
                    "coding": [
                        {
                            "system": "http://snomed.info/ct",
                            "code": "195917001",
                            "display": "asthma"
                        }
                    ],
                    "text": "asthma"
                },
                "subject": {
                    "reference": "Patient/3233451"
                },
                "onsetAge": {
                    "value": 14,
                    "system": "http://unitsofmeasure.org",
                    "code": "a"
                }
            },
            "search": {
                "mode": "match"
            }
        },
        {
            "fullUrl": "http://test.fhir.org/r3/Condition/417",
            "resource": {
                "resourceType": "Condition",
                "id": "417",
                "meta": {
                    "versionId": "1",
                    "lastUpdated": "2020-01-08T17:39:24.874Z"
                },
                "text": {
                    "status": "generated",
                    "div": "<div xmlns=\"http://www.w3.org/1999/xhtml\">Diabetes</div>"
                },
                "clinicalStatus": "active",
                "verificationStatus": "confirmed",
                "category": [
                    {
                        "coding": [
                            {
                                "system": "http://snomed.info/sct",
                                "code": "14657009",
                                "display": "Diagnosis"
                            }
                        ],
                        "text": "Diagnosis"
                    }
                ],
                "severity": {
                    "coding": [
                        {
                            "system": "http://snomed.info/ct",
                            "code": "6736007",
                            "display": "moderate"
                        }
                    ],
                    "text": "moderate"
                },
                "code": {
                    "coding": [
                        {
                            "system": "http://snomed.info/ct",
                            "code": "73211009",
                            "display": "diabetes"
                        }
                    ],
                    "text": "diabetes"
                },
                "subject": {
                    "reference": "Patient/3233451"
                },
                "onsetAge": {
                    "value": 60,
                    "system": "http://unitsofmeasure.org",
                    "code": "a"
                }
            },
            "search": {
                "mode": "match"
            }
        },
        {
            "fullUrl": "http://test.fhir.org/r3/Condition/418",
            "resource": {
                "resourceType": "Condition",
                "id": "418",
                "meta": {
                    "versionId": "1",
                    "lastUpdated": "2020-01-08T17:39:25.562Z"
                },
                "text": {
                    "status": "generated",
                    "div": "<div xmlns=\"http://www.w3.org/1999/xhtml\">Hypertension</div>"
                },
                "clinicalStatus": "active",
                "verificationStatus": "confirmed",
                "category": [
                    {
                        "coding": [
                            {
                                "system": "http://snomed.info/sct",
                                "code": "14657009",
                                "display": "Diagnosis"
                            }
                        ],
                        "text": "Diagnosis"
                    }
                ],
                "severity": {
                    "coding": [
                        {
                            "system": "http://snomed.info/ct",
                            "code": "255604002",
                            "display": "mild"
                        }
                    ],
                    "text": "Mild"
                },
                "code": {
                    "coding": [
                        {
                            "system": "http://snomed.info/ct",
                            "code": "38341003",
                            "display": "hypertension"
                        }
                    ],
                    "text": "hypertension"
                },
                "subject": {
                    "reference": "Patient/3233451"
                },
                "onsetAge": {
                    "value": 68,
                    "system": "http://unitsofmeasure.org",
                    "code": "a"
                }
            },
            "search": {
                "mode": "match"
            }
        },
        {
            "fullUrl": "http://test.fhir.org/r3/Condition/419",
            "resource": {
                "resourceType": "Condition",
                "id": "419",
                "meta": {
                    "versionId": "1",
                    "lastUpdated": "2020-01-08T17:39:26.249Z"
                },
                "text": {
                    "status": "generated",
                    "div": "<div xmlns=\"http://www.w3.org/1999/xhtml\">Depression</div>"
                },
                "clinicalStatus": "active",
                "verificationStatus": "confirmed",
                "category": [
                    {
                        "coding": [
                            {
                                "system": "http://snomed.info/sct",
                                "code": "14657009",
                                "display": "Diagnosis"
                            }
                        ],
                        "text": "Diagnosis"
                    }
                ],
                "severity": {
                    "coding": [
                        {
                            "system": "http://snomed.info/ct",
                            "code": "6736007",
                            "display": "moderate"
                        }
                    ],
                    "text": "Moderate"
                },
                "code": {
                    "coding": [
                        {
                            "system": "http://snomed.info/ct",
                            "code": "35489007",
                            "display": "depression"
                        }
                    ],
                    "text": "depression"
                },
                "subject": {
                    "reference": "Patient/3233451"
                },
                "onsetAge": {
                    "value": 74,
                    "system": "http://unitsofmeasure.org",
                    "code": "a"
                }
            },
            "search": {
                "mode": "match"
            }
        },
        {
            "fullUrl": "http://test.fhir.org/r3/Condition/420",
            "resource": {
                "resourceType": "Condition",
                "id": "420",
                "meta": {
                    "versionId": "1",
                    "lastUpdated": "2020-01-08T17:39:26.374Z"
                },
                "text": {
                    "status": "generated",
                    "div": "<div xmlns=\"http://www.w3.org/1999/xhtml\">Neuropathic pain</div>"
                },
                "clinicalStatus": "active",
                "verificationStatus": "confirmed",
                "category": [
                    {
                        "coding": [
                            {
                                "system": "http://snomed.info/sct",
                                "code": "14657009",
                                "display": "Diagnosis"
                            }
                        ],
                        "text": "Diagnosis"
                    }
                ],
                "severity": {
                    "coding": [
                        {
                            "system": "http://snomed.info/ct",
                            "code": "6736007",
                            "display": "moderate"
                        }
                    ],
                    "text": "moderate"
                },
                "code": {
                    "coding": [
                        {
                            "system": "http://snomed.info/ct",
                            "code": "247389009",
                            "display": "neuropathic pain"
                        }
                    ],
                    "text": "neuropathic pain"
                },
                "subject": {
                    "reference": "Patient/3233451"
                },
                "onsetAge": {
                    "value": 75,
                    "system": "http://unitsofmeasure.org",
                    "code": "a"
                }
            },
            "search": {
                "mode": "match"
            }
        },
        {
            "fullUrl": "http://test.fhir.org/r3/Condition/421",
            "resource": {
                "resourceType": "Condition",
                "id": "421",
                "meta": {
                    "versionId": "1",
                    "lastUpdated": "2020-01-08T17:39:26.968Z"
                },
                "text": {
                    "status": "generated",
                    "div": "<div xmlns=\"http://www.w3.org/1999/xhtml\">Rheumatoid Arthritis</div>"
                },
                "clinicalStatus": "active",
                "verificationStatus": "confirmed",
                "category": [
                    {
                        "coding": [
                            {
                                "system": "http://snomed.info/sct",
                                "code": "14657009",
                                "display": "Diagnosis"
                            }
                        ],
                        "text": "Diagnosis"
                    }
                ],
                "severity": {
                    "coding": [
                        {
                            "system": "http://snomed.info/ct",
                            "code": "6736007",
                            "display": "moderate"
                        }
                    ],
                    "text": "Moderate"
                },
                "code": {
                    "coding": [
                        {
                            "system": "http://snomed.info/ct",
                            "code": "69896004",
                            "display": "rheumatoid arthritis"
                        }
                    ],
                    "text": "rheumatoid arthritis - both hands"
                },
                "bodySite": [
                    {
                        "coding": [
                            {
                                "system": "http://snomed.info/ct",
                                "code": "12861001",
                                "display": "both hands"
                            }
                        ],
                        "text": "both hands"
                    }
                ],
                "subject": {
                    "reference": "Patient/3233451"
                },
                "onsetAge": {
                    "value": 72,
                    "system": "http://unitsofmeasure.org",
                    "code": "a"
                },
                "evidence": [
                    {
                        "code": [
                            {
                                "coding": [
                                    {
                                        "system": "http://snomed.info/ct",
                                        "code": "57676002",
                                        "display": "Painful Joint"
                                    }
                                ],
                                "text": "Painful joint"
                            }
                        ]
                    }
                ]
            },
            "search": {
                "mode": "match"
            }
        },
        {
            "fullUrl": "http://test.fhir.org/r3/Condition/422",
            "resource": {
                "resourceType": "Condition",
                "id": "422",
                "meta": {
                    "versionId": "1",
                    "lastUpdated": "2020-01-08T17:39:27.843Z"
                },
                "text": {
                    "status": "generated",
                    "div": "<div xmlns=\"http://www.w3.org/1999/xhtml\">Rheumatoid arthritis - left elbow</div>"
                },
                "clinicalStatus": "active",
                "verificationStatus": "confirmed",
                "category": [
                    {
                        "coding": [
                            {
                                "system": "http://snomed.info/sct",
                                "code": "14657009",
                                "display": "Diagnosis"
                            }
                        ],
                        "text": "Diagnosis"
                    }
                ],
                "severity": {
                    "coding": [
                        {
                            "system": "http://snomed.info/ct",
                            "code": "6736007",
                            "display": "mild to moderate"
                        }
                    ],
                    "text": "Diagnosis"
                },
                "code": {
                    "coding": [
                        {
                            "system": "http://snomed.info/ct",
                            "code": "69896004",
                            "display": "rheumatoid arthritis"
                        }
                    ],
                    "text": "rheumatoid arthritis - left elbow"
                },
                "subject": {
                    "reference": "Patient/3233451"
                },
                "onsetAge": {
                    "value": 74,
                    "system": "http://unitsofmeasure.org",
                    "code": "a"
                },
                "evidence": [
                    {
                        "code": [
                            {
                                "coding": [
                                    {
                                        "system": "http://snomed.info/ct",
                                        "code": "57676002",
                                        "display": "Painful Joint"
                                    }
                                ],
                                "text": "Painful joint"
                            }
                        ]
                    }
                ]
            },
            "search": {
                "mode": "match"
            }
        },
        {
            "fullUrl": "http://test.fhir.org/r3/Condition/423",
            "resource": {
                "resourceType": "Condition",
                "id": "423",
                "meta": {
                    "versionId": "1",
                    "lastUpdated": "2020-01-08T17:39:27.968Z"
                },
                "text": {
                    "status": "generated",
                    "div": "<div xmlns=\"http://www.w3.org/1999/xhtml\">GERD</div>"
                },
                "clinicalStatus": "active",
                "verificationStatus": "confirmed",
                "category": [
                    {
                        "coding": [
                            {
                                "system": "http://snomed.info/sct",
                                "code": "14657009",
                                "display": "Diagnosis"
                            }
                        ],
                        "text": "Diagnosis"
                    }
                ],
                "severity": {
                    "coding": [
                        {
                            "system": "http://snomed.info/ct",
                            "code": "6736007",
                            "display": "moderate"
                        }
                    ],
                    "text": "Moderate"
                },
                "code": {
                    "coding": [
                        {
                            "system": "http://snomed.info/ct",
                            "code": "235595009",
                            "display": "GERD"
                        }
                    ],
                    "text": "GERD"
                },
                "subject": {
                    "reference": "Patient/3233451"
                },
                "onsetAge": {
                    "value": 66,
                    "system": "http://unitsofmeasure.org",
                    "code": "a"
                }
            },
            "search": {
                "mode": "match"
            }
        },
        {
            "fullUrl": "http://test.fhir.org/r3/Condition/424",
            "resource": {
                "resourceType": "Condition",
                "id": "424",
                "meta": {
                    "versionId": "1",
                    "lastUpdated": "2020-01-08T17:39:28.718Z"
                },
                "text": {
                    "status": "generated",
                    "div": "<div xmlns=\"http://www.w3.org/1999/xhtml\">Hypercholesterolaemia</div>"
                },
                "clinicalStatus": "active",
                "verificationStatus": "confirmed",
                "category": [
                    {
                        "coding": [
                            {
                                "system": "http://snomed.info/sct",
                                "code": "14657009",
                                "display": "Diagnosis"
                            }
                        ],
                        "text": "Diagnosis"
                    }
                ],
                "severity": {
                    "coding": [
                        {
                            "system": "http://snomed.info/ct",
                            "code": "6736007",
                            "display": "moderate"
                        }
                    ],
                    "text": "Moderate"
                },
                "code": {
                    "coding": [
                        {
                            "system": "http://snomed.info/ct",
                            "code": "13644009",
                            "display": "high cholesterol"
                        }
                    ],
                    "text": "high cholesterol"
                },
                "subject": {
                    "reference": "Patient/3233451"
                },
                "onsetAge": {
                    "value": 68,
                    "system": "http://unitsofmeasure.org",
                    "code": "a"
                }
            },
            "search": {
                "mode": "match"
            }
        },
        {
            "fullUrl": "http://test.fhir.org/r3/Condition/425",
            "resource": {
                "resourceType": "Condition",
                "id": "425",
                "meta": {
                    "versionId": "1",
                    "lastUpdated": "2020-01-08T17:39:29.499Z"
                },
                "text": {
                    "status": "generated",
                    "div": "<div xmlns=\"http://www.w3.org/1999/xhtml\">Onychomycosis</div>"
                },
                "clinicalStatus": "active",
                "verificationStatus": "confirmed",
                "category": [
                    {
                        "coding": [
                            {
                                "system": "http://snomed.info/sct",
                                "code": "14657009",
                                "display": "Diagnosis"
                            }
                        ],
                        "text": "Diagnosis"
                    }
                ],
                "severity": {
                    "coding": [
                        {
                            "system": "http://snomed.info/ct",
                            "code": "24484000",
                            "display": "severe"
                        }
                    ],
                    "text": "severe"
                },
                "code": {
                    "coding": [
                        {
                            "system": "http://snomed.info/ct",
                            "code": "414941998",
                            "display": "onychomycosis"
                        }
                    ],
                    "text": "onychomycosis"
                },
                "subject": {
                    "reference": "Patient/3233451"
                },
                "onsetAge": {
                    "value": 77,
                    "system": "http://unitsofmeasure.org",
                    "code": "a"
                }
            },
            "search": {
                "mode": "match"
            }
        },
        {
            "fullUrl": "http://test.fhir.org/r3/Condition/426",
            "resource": {
                "resourceType": "Condition",
                "id": "426",
                "meta": {
                    "versionId": "1",
                    "lastUpdated": "2020-01-08T17:39:30.156Z"
                },
                "text": {
                    "status": "generated",
                    "div": "<div xmlns=\"http://www.w3.org/1999/xhtml\">Angina</div>"
                },
                "clinicalStatus": "active",
                "verificationStatus": "confirmed",
                "category": [
                    {
                        "coding": [
                            {
                                "system": "http://snomed.info/sct",
                                "code": "14657009",
                                "display": "Diagnosis"
                            }
                        ],
                        "text": "Diagnosis"
                    }
                ],
                "severity": {
                    "coding": [
                        {
                            "system": "http://snomed.info/ct",
                            "code": "6736007",
                            "display": "moderate"
                        }
                    ],
                    "text": "Moderate"
                },
                "code": {
                    "coding": [
                        {
                            "system": "http://snomed.info/ct",
                            "code": "194818000",
                            "display": "angina"
                        }
                    ],
                    "text": "angina"
                },
                "subject": {
                    "reference": "Patient/3233451"
                },
                "onsetAge": {
                    "value": 76,
                    "system": "http://unitsofmeasure.org",
                    "code": "a"
                },
                "evidence": [
                    {
                        "code": [
                            {
                                "coding": [
                                    {
                                        "system": "http://snomed.info/ct",
                                        "code": "29857009",
                                        "display": "Chest Pain"
                                    }
                                ],
                                "text": "Chest Pain"
                            }
                        ]
                    }
                ]
            },
            "search": {
                "mode": "match"
            }
        },
        {
            "fullUrl": "http://test.fhir.org/r3/Condition/427",
            "resource": {
                "resourceType": "Condition",
                "id": "427",
                "meta": {
                    "versionId": "1",
                    "lastUpdated": "2020-01-09T14:40:00.125Z"
                },
                "text": {
                    "status": "generated",
                    "div": "<div xmlns=\"http://www.w3.org/1999/xhtml\">Asthma</div>"
                },
                "clinicalStatus": "active",
                "verificationStatus": "confirmed",
                "category": [
                    {
                        "coding": [
                            {
                                "system": "http://snomed.info/sct",
                                "code": "14657009",
                                "display": "Diagnosis"
                            }
                        ],
                        "text": "Diagnosis"
                    }
                ],
                "severity": {
                    "coding": [
                        {
                            "system": "http://snomed.info/ct",
                            "code": "6736007",
                            "display": "mild to moderate"
                        }
                    ],
                    "text": "mild to moderate"
                },
                "code": {
                    "coding": [
                        {
                            "system": "http://snomed.info/ct",
                            "code": "195917001",
                            "display": "asthma"
                        }
                    ],
                    "text": "asthma"
                },
                "subject": {
                    "reference": "Patient/3233453"
                },
                "onsetAge": {
                    "value": 14,
                    "system": "http://unitsofmeasure.org",
                    "code": "a"
                }
            },
            "search": {
                "mode": "match"
            }
        },
        {
            "fullUrl": "http://test.fhir.org/r3/Condition/428",
            "resource": {
                "resourceType": "Condition",
                "id": "428",
                "meta": {
                    "versionId": "1",
                    "lastUpdated": "2020-01-09T14:40:01.234Z"
                },
                "text": {
                    "status": "generated",
                    "div": "<div xmlns=\"http://www.w3.org/1999/xhtml\">Diabetes</div>"
                },
                "clinicalStatus": "active",
                "verificationStatus": "confirmed",
                "category": [
                    {
                        "coding": [
                            {
                                "system": "http://snomed.info/sct",
                                "code": "14657009",
                                "display": "Diagnosis"
                            }
                        ],
                        "text": "Diagnosis"
                    }
                ],
                "severity": {
                    "coding": [
                        {
                            "system": "http://snomed.info/ct",
                            "code": "6736007",
                            "display": "moderate"
                        }
                    ],
                    "text": "moderate"
                },
                "code": {
                    "coding": [
                        {
                            "system": "http://snomed.info/ct",
                            "code": "73211009",
                            "display": "diabetes"
                        }
                    ],
                    "text": "diabetes"
                },
                "subject": {
                    "reference": "Patient/3233453"
                },
                "onsetAge": {
                    "value": 60,
                    "system": "http://unitsofmeasure.org",
                    "code": "a"
                }
            },
            "search": {
                "mode": "match"
            }
        },
        {
            "fullUrl": "http://test.fhir.org/r3/Condition/429",
            "resource": {
                "resourceType": "Condition",
                "id": "429",
                "meta": {
                    "versionId": "1",
                    "lastUpdated": "2020-01-09T14:40:01.406Z"
                },
                "text": {
                    "status": "generated",
                    "div": "<div xmlns=\"http://www.w3.org/1999/xhtml\">Hypertension</div>"
                },
                "clinicalStatus": "active",
                "verificationStatus": "confirmed",
                "category": [
                    {
                        "coding": [
                            {
                                "system": "http://snomed.info/sct",
                                "code": "14657009",
                                "display": "Diagnosis"
                            }
                        ],
                        "text": "Diagnosis"
                    }
                ],
                "severity": {
                    "coding": [
                        {
                            "system": "http://snomed.info/ct",
                            "code": "255604002",
                            "display": "mild"
                        }
                    ],
                    "text": "Mild"
                },
                "code": {
                    "coding": [
                        {
                            "system": "http://snomed.info/ct",
                            "code": "38341003",
                            "display": "hypertension"
                        }
                    ],
                    "text": "hypertension"
                },
                "subject": {
                    "reference": "Patient/3233453"
                },
                "onsetAge": {
                    "value": 68,
                    "system": "http://unitsofmeasure.org",
                    "code": "a"
                }
            },
            "search": {
                "mode": "match"
            }
        }
    ]
}